File: input.uxd
;content of C:\Users\pm0157\AppData\Local\Temp\92fetmp-1570884320.raw - (Diffrac Plus V4 file)
_FILEVERSION = 3
_SAMPLE = Commander Sample ID
_+SAMPLE
_USER = Operator
_GONIOMETER_CODE = 21
_STAGE_CODE = 7
; Goniometer : D8 theta/theta, stage : Chi drive
_SAMPLE_CHANGER_CODE = 0
_ATTACHMENTS_CODE = 0
_GONIOMETER_RADIUS = 280
_FIXED_DIVSLIT = 18
_SOLLER_SLITS = 2
_MONOCHROMATOR = 0
; Incident beam monochromator : None
_BETA_FILTER = N
_ANALYZER_CODE = 0
; Received beam analyzer : None
_DATEMEASURED = 01-Oct-2019 16:13:03
_RUNTIME = 1.14083
_WL_UNIT = A
_WL1 = 1.5406
_WL2 = 1.54439
_WL3 = 1.39222
_WLRATIO = 0.5
_ANODE = Cu
_V4_INF_USER = Operator
_V4_INF_SAMPLEID = Commander Sample ID
_V4_INF_CREATOR = V5Converter
_V4_INF_CREATOR_VERSION = 6.1.2.0

; Data for range 1
_DRIVE = COUPLED
_STEPTIME = 38.4
_STEPSIZE = 0.015327
_STEPMODE = C
_START = 93.0001
_THETA = 46.50005
_2THETA = 93.0001
_DIVERGENCE = 10
_DETECTORSLIT = out
_TIMESTARTED = 0
_KV = 40
_MA = 35
_RANGE_WL = 1.5406
_3DPLANE = 0
_V4_PSD2THETA = 9999
_V4_PSDCHANNEL1 = 0
_V4_PSDAPERTURE = 2.942719
_V4_PSDTYPE = 5
_V4_PSDFIXED = 0
_V4_COUNTERS_MASK = 1
_V4_DRIVES_MASK = 0
_V4_ENCODERS_MASK = 0
_2THETACOUNTS = 1
; 2THETA	Cnt2_D1
93.0001	10.3125
93.0154	10.6771
93.0308	11.5365
93.0461	11.3021
93.0614	11.7448
93.0767	11.1719
93.0921	12.2135
93.1074	11.5104
93.1227	12.6042
93.138	11.9792
93.1534	12.1615
93.1687	11.5104
93.184	11.1458
93.1993	11.6146
93.2147	10.8594
93.23	10.8073
93.2453	11.4583
93.2607	11.7708
93.276	10.8073
93.2913	11.0938
93.3066	11.6927
93.322	12.1094
93.3373	12.5
93.3526	13.0469
93.3679	12.474
93.3833	11.6927
93.3986	11.3021
93.4139	11.9531
93.4292	11.0156
93.4446	11.7448
93.4599	12.5
93.4752	11.7448
93.4906	11.5885
93.5059	11.0417
93.5212	12.7344
93.5365	12.3177
93.5519	12.0052
93.5672	12.1354
93.5825	12.1354
93.5978	12.9688
93.6132	12.3698
93.6285	13.3333
93.6438	12.3438
93.6591	13.3594
93.6745	12.6562
93.6898	12.8125
93.7051	13.099
93.7205	13.151
93.7358	13.0469
93.7511	13.125
93.7664	13.724
93.7818	13.5156
93.7971	12.4479
93.8124	12.5781
93.8277	13.099
93.8431	13.2812
93.8584	13.3854
93.8737	14.5573
93.889	12.6823
93.9044	13.6719
93.9197	13.724
93.935	14.5052
93.9504	14.8177
93.9657	14.974
93.981	14.1927
93.9963	13.5417
94.0117	14.8438
94.027	14.2188
94.0423	15.7552
94.0576	14.7135
94.073	14.7917
94.0883	15.0781
94.1036	14.7917
94.1189	16.5885
94.1343	15.3125
94.1496	15.5469
94.1649	15
94.1803	15.5208
94.1956	16.4062
94.2109	17.0052
94.2262	18.9844
94.2416	20.625
94.2569	22.0833
94.2722	23.4635
94.2875	19.5052
94.3029	18.8281
94.3182	17.0573
94.3335	18.4635
94.3488	20.2604
94.3642	19.4271
94.3795	17.9688
94.3948	19.7656
94.4102	20.4688
94.4255	21.3281
94.4408	19.8438
94.4561	21.3542
94.4715	20.625
94.4868	22.7604
94.5021	22.6562
94.5174	24.375
94.5328	25.4948
94.5481	27.5
94.5634	27.7865
94.5787	30.2604
94.5941	29.7656
94.6094	31.7448
94.6247	31.0417
94.6401	32.9688
94.6554	34.6615
94.6707	33.6458
94.686	33.9062
94.7014	34.401
94.7167	35.3385
94.732	35.625
94.7473	36.4323
94.7627	39.2969
94.778	39.1927
94.7933	39.8958
94.8086	41.6927
94.824	43.3073
94.8393	48.9323
94.8546	50.1042
94.87	51.5885
94.8853	57.6562
94.9006	61.7188
94.9159	71.849
94.9313	77.3177
94.9466	84.4271
94.9619	91.9271
94.9772	106.172
94.9926	124.375
95.0079	144.557
95.0232	175.781
95.0385	206.25
95.0539	255.938
95.0692	326.667
95.0845	414.661
95.0999	551.12
95.1152	693.516
95.1305	859.401
95.1458	992.213
95.1612	1073.23
95.1765	1106.38
95.1918	1079.69
95.2071	1042.37
95.2225	935.469
95.2378	824.635
95.2531	699.661
95.2684	582.109
95.2838	475.026
95.2991	402.005
95.3144	341.875
95.3298	306.797
95.3451	288.932
95.3604	281.615
95.3757	291.979
95.3911	310.104
95.4064	357.135
95.4217	419.036
95.437	484.062
95.4524	548.776
95.4677	593.594
95.483	622.891
95.4983	612.76
95.5137	590.781
95.529	544.766
95.5443	489.688
95.5597	417.474
95.575	347.318
95.5903	283.698
95.6056	230.651
95.621	191.641
95.6363	163.359
95.6516	140.312
95.6669	119.01
95.6823	104.948
95.6976	94.375
95.7129	84.349
95.7282	73.125
95.7436	66.3802
95.7589	61.4844
95.7742	55.9896
95.7896	51.0156
95.8049	47.1615
95.8202	44.4792
95.8355	39.5833
95.8509	40.3385
95.8662	37.3438
95.8815	35.5729
95.8968	32.7865
95.9122	33.151
95.9275	29.2708
95.9428	29.0104
95.9581	29.0365
95.9735	27.474
95.9888	27.0833
96.0041	26.1198
96.0195	24.2188
96.0348	24.8698
96.0501	21.4844
96.0654	23.099
96.0808	21.9792
96.0961	22.2917
96.1114	22.5521
96.1267	22.3958
96.1421	21.0677
96.1574	21.7708
96.1727	20.3125
96.188	19.375
96.2034	20.7031
96.2187	18.2292
96.234	17.9948
96.2494	18.8542
96.2647	18.776
96.28	18.0208
96.2953	18.1771
96.3107	18.776
96.326	17.3958
96.3413	18.8281
96.3566	17.3698
96.372	17.0312
96.3873	16.4583
96.4026	19.0365
96.4179	16.849
96.4333	17.8125
96.4486	17.3438
96.4639	17.6823
96.4793	17.2396
96.4946	16.8229
96.5099	17.2917
96.5252	15.9375
96.5406	17.0312
96.5559	15.8854
96.5712	16.9531
96.5865	15.9375
96.6019	17.1094
96.6172	14.974
96.6325	15.5208
96.6478	16.901
96.6632	16.0938
96.6785	15.4948
96.6938	15.625
96.7092	16.3802
96.7245	14.349
96.7398	15.2865
96.7551	15.4688
96.7705	15.1823
96.7858	14.5573
96.8011	15.2083
96.8164	13.5417
96.8318	14.8698
96.8471	15.4688
96.8624	15.625
96.8777	16.7448
96.8931	15.3385
96.9084	13.8542
96.9237	14.5052
96.9391	14.3229
96.9544	14.2448
96.9697	14.2448
96.985	14.9219
97.0004	14.1406
97.0157	14.2188
97.031	14.4792
97.0463	12.9427
97.0617	13.9583
97.077	13.3333
97.0923	13.5156
97.1076	13.3333
97.123	13.8542
97.1383	14.5573
97.1536	15.026
97.169	14.4531
97.1843	13.8021
97.1996	14.0625
97.2149	14.6094
97.2303	14.2188
97.2456	14.0885
97.2609	13.6979
97.2762	14.5833
97.2916	13.9844
97.3069	14.8177
97.3222	13.6198
97.3375	14.5052
97.3529	14.401
97.3682	13.724
97.3835	13.2552
97.3989	13.776
97.4142	13.151
97.4295	13.9323
97.4448	13.4635
97.4602	14.9219
97.4755	14.4531
97.4908	13.9062
97.5061	13.5938
97.5215	13.2031
97.5368	12.3698
97.5521	13.2552
97.5674	13.3073
97.5828	14.349
97.5981	13.2552
97.6134	14.5573
97.6288	12.5781
97.6441	13.2552
97.6594	13.776
97.6747	13.8542
97.6901	13.9323
97.7054	13.3854
97.7207	12.8906
97.736	11.875
97.7514	13.4115
97.7667	13.5156
97.782	13.0729
97.7973	13.5677
97.8127	12.4219
97.828	13.8542
97.8433	12.6823
97.8587	13.6979
97.874	14.2188
97.8893	14.2708
97.9046	13.6979
97.92	13.5938
97.9353	13.6198
97.9506	12.8906
97.9659	13.4896
97.9813	13.4115
97.9966	13.2031